mathematic model
type                 PA-7LHPTi / 400bar MM0279 / 03-00027-04
sn                   0141TIGR5
temperature range    25.0 .. 175.0°C
pressure range       0 .. 400bar abs

date                 24.06.22
excitation           0.424mA

Version              V20.3.0.94
-----------------------------------------------------------------------

P  = f(Sig,R)        temp       Rb'       sig     press    p calc    deviat
                     [°C]     [Ohm]      [mV]     [bar]     [bar]     [%fs]
                     24.7    3234.6     3.489    -0.039    -0.031      0.00
                             3234.2    11.100    49.970    49.972      0.00
                             3233.9    18.711    99.965    99.969      0.00
                             3234.5    33.943   199.967   199.985      0.00
                             3236.0    49.178   299.975   299.980      0.00
                             3238.6    64.420   399.972   399.986      0.00

                     54.9    3482.6     3.759    -0.039    -0.058     -0.00
                             3480.8    11.431    49.970    49.943     -0.01
                             3481.5    19.105    99.965    99.934     -0.01
                             3482.1    34.461   199.970   199.940     -0.01
                             3483.5    49.818   299.975   299.924     -0.01
                             3485.8    65.182   399.976   399.930     -0.01

                     85.1    3762.5     4.062    -0.037    -0.005      0.01
                             3759.2    11.844    49.970    50.016      0.01
                             3760.7    19.631    99.967   100.012      0.01
                             3761.5    35.209   199.971   200.028      0.01
                             3762.8    50.793   299.976   300.055      0.02
                             3764.9    66.376   399.977   400.054      0.02

                    115.3    4068.5     4.393    -0.038    -0.064     -0.01
                             4063.4    12.312    49.971    49.936     -0.01
                             4065.8    20.242    99.966    99.923     -0.01
                             4066.9    36.105   199.970   199.928     -0.01
                             4068.2    51.969   299.976   299.908     -0.02
                             4070.2    67.840   399.975   399.912     -0.02

                    145.5    4399.3     4.721    -0.038    -0.029      0.00
                             4391.0    12.800    49.973    49.998      0.01
                             4395.1    20.887    99.970    99.974      0.00
                             4396.9    37.072   199.972   199.999      0.01
                             4398.3    53.259   299.976   300.000      0.01
                             4400.1    69.447   399.978   400.006      0.01

                    175.9    4745.4     4.765    -0.040    -0.051     -0.00
                             4734.3    13.018    49.973    49.999      0.01
                             4740.1    21.250    99.967    99.938     -0.01
                             4742.3    37.750   199.970   199.975      0.00
                             4743.6    54.249   299.974   299.968     -0.00
                             4745.3    70.758   399.973   399.968     -0.00



T  = f(R,Sig)            press       Rb'    t meas    t calc    deviat
                         [bar]     [Ohm]      [°C]      [°C]      [°C]
                        -0.039    3234.6      24.7      24.7      -0.0
                        49.971    3234.2      24.7      24.7       0.0
                        99.967    3233.9      24.7      24.7      -0.0
                       199.969    3234.5      24.7      24.7       0.0
                       299.978    3236.0      24.7      24.7       0.0
                       399.973    3238.6      24.7      24.8       0.1

                        -0.040    3482.6      54.9      54.9      -0.0
                        49.970    3480.8      54.9      54.8      -0.1
                        99.966    3481.5      54.9      54.9       0.0
                       199.971    3482.1      54.9      54.9       0.0
                       299.977    3483.5      54.9      54.9      -0.0
                       399.976    3485.8      54.9      54.9       0.0

                        -0.039    3762.5      85.1      85.2       0.1
                        49.969    3759.2      85.1      85.0      -0.1
                        99.967    3760.7      85.1      85.2       0.1
                       199.971    3761.5      85.1      85.2       0.1
                       299.977    3762.8      85.1      85.1       0.0
                       399.976    3764.9      85.1      85.2       0.1

                        -0.040    4068.5     115.3     115.3       0.1
                        49.970    4063.4     115.3     115.0      -0.2
                        99.966    4065.8     115.3     115.3       0.1
                       199.970    4066.9     115.3     115.3       0.0
                       299.977    4068.2     115.3     115.1      -0.1
                       399.974    4070.2     115.3     115.2      -0.0

                        -0.041    4399.3     145.5     145.7       0.2
                        49.971    4391.0     145.5     145.3      -0.3
                        99.969    4395.1     145.5     145.7       0.2
                       199.971    4396.9     145.5     145.6       0.1
                       299.976    4398.3     145.5     145.4      -0.1
                       399.976    4400.1     145.5     145.6       0.1

                        -0.041    4745.4     175.9     176.1       0.2
                        49.973    4734.3     175.9     175.5      -0.4
                        99.968    4740.1     175.9     176.1       0.2
                       199.971    4742.3     175.9     176.0       0.1
                       299.976    4743.6     175.9     175.7      -0.2
                       399.973    4745.3     175.9     176.1       0.2



